File: examples/data/ge_ellipsometry_data.dat
Ge sylarus wafer 300-1700nm, 75-77-79 deg, AR on, alignment detector out
VASEmethod[EllipsometerType=5, Isotropic+Depolarization, AutoRetarder=1, TrackPol=1, Pol>=0, Revs=5.0, AutoSlit=1700, WVASE=3.862, HardVer=6.256, Fri Jan 06 16:36:41 2017]
Original[ge_sylarus_wafer_scan_300_1700nm_75_77_79_alignment_out_ar.dat]
nm
300	75	27.7084	102.1311	0.047283	0.140573
305	75	26.6821	101.87	0.0438697	0.133778
310	75	25.896	101.481	0.0382646	0.118406
315	75	25.295	101.2794	0.0407412	0.127359
320	75	24.7731	101.195	0.0458801	0.150452
325	75	24.2985	101.048	0.0440148	0.145237
330	75	23.8736	101.083	0.0455404	0.151426
335	75	23.4853	101.161	0.0444328	0.149191
340	75	23.1253	101.326	0.0405691	0.137295
345	75	22.7845	101.509	0.0409285	0.139613
350	75	22.4786	101.742	0.041208	0.141895
355	75	22.1709	102.16	0.0424978	0.147941
360	75	21.84668	102.4158	0.0441854	0.159722
365	75	21.5388	102.827	0.0385577	0.140471
370	75	21.2129	103.38	0.040509	0.149765
375	75	20.87475	103.656	0.0388129	0.144735
380	75	20.5171	103.918	0.0368676	0.139064
385	75	20.1601	104.11	0.0407549	0.155921
390	75	19.8208	104.179	0.0362359	0.140204
395	75	19.4903	104.125	0.0376198	0.147178
400	75	19.2214	104.018	0.0374076	0.148076
405	75	18.9962	103.617	0.0391773	0.159655
410	75	18.8376	103.353	0.0385567	0.157772
415	75	18.7394	103.005	0.0370357	0.151403
420	75	18.687	102.7018	0.0400119	0.162951
425	75	18.6769	102.647	0.0365439	0.148573
430	75	18.6951	102.627	0.0368714	0.149286
435	75	18.7339	102.714	0.0393728	0.158744
440	75	18.7793	102.945	0.0361709	0.145279
445	75	18.8272	103.275	0.0398274	0.159525
450	75	18.8769	103.749	0.0356583	0.146316
455	75	18.928	104.207	0.0349581	0.142877
460	75	18.9768	104.73	0.0372662	0.151792
465	75	19.02417	105.418	0.0354601	0.144457
470	75	19.0694	105.982	0.0350791	0.142443
475	75	19.1142	106.812	0.0355137	0.144651
480	75	19.1598	107.642	0.0314089	0.128002
485	75	19.2021	108.473	0.0324953	0.132817
490	75	19.2439	109.36	0.0348203	0.142689
495	75	19.2803	110.215	0.0356615	0.146581
500	75	19.3161	111.152	0.0307013	0.127736
505	75	19.3531	112.163	0.0319445	0.133151
510	75	19.3907	113.339	0.0321173	0.134422
515	75	19.4234	114.658	0.0282294	0.119042
520	75	19.435	116.197	0.0280197	0.119428
525	75	19.3888	117.896	0.0277733	0.120132
530	75	19.2557	119.552	0.0262403	0.115649
535	75	19.0293	121.257	0.0237212	0.107219
540	75	18.75292	122.526	0.0278724	0.128907
545	75	18.468	123.801	0.0219435	0.104169
550	75	18.2051	124.869	0.0229366	0.111816
555	75	18.0283	125.57	0.0201109	0.0967839
560	75	17.8985	126.468	0.0176142	0.0859794
565	75	17.8477	127.415	0.0185848	0.0917458
570	75	17.826	128.719	0.0216585	0.108272
575	75	17.7784	130.427	0.0197326	0.100391
580	75	17.6472	132.473	0.0172297	0.0898585
585	75	17.3795	134.721	0.0165493	0.0891619
590	75	17.0127	136.708	0.0166359	0.0931839
595	75	16.5693	138.424	0.015009	0.0874017
600	75	16.0529	140.037	0.014616	0.0887783
605	75	15.5373	141.099	0.0222685	0.133905
610	75	15.0542	142.027	0.0230981	0.144046
615	75	14.5849	142.755	0.0228216	0.147345
620	75	14.177	143.34	0.0219271	0.147143
625	75	13.7839	143.798	0.0201529	0.139628
630	75	13.4213	144.189	0.0193149	0.137855
635	75	13.0823	144.513	0.0188365	0.139064
640	75	12.7585	144.755	0.0210278	0.159739
645	75	12.4686	144.99	0.0181625	0.141688
650	75	12.195	145.105	0.0199231	0.1593
655	75	11.9353	145.2608	0.0183422	0.151283
660	75	11.6937	145.423	0.0159344	0.134741
665	75	11.4655	145.385	0.024777	0.202204
670	75	11.2493	145.484	0.0235189	0.196132
675	75	11.0443	145.645	0.020595	0.175413
680	75	10.8488	145.723	0.0213742	0.187075
685	75	10.6692	145.751	0.0192097	0.171527
690	75	10.4919	145.719	0.021704	0.197628
695	75	10.3246	145.816	0.0194903	0.180968
700	75	10.1668	145.82	0.0198936	0.18804
705	75	10.0144	145.869	0.0198394	0.190925
710	75	9.86108	145.985	0.0162237	0.160047
715	75	9.728569	146.006	0.0164435	0.165185
720	75	9.59546	146.006	0.0179195	0.18305
725	75	9.46376	145.975	0.0175015	0.181662
730	75	9.32863	145.952	0.0221089	0.220803
735	75	9.214304	145.998	0.0240854	0.244221
740	75	9.08287	146.025	0.0223581	0.230585
745	75	8.975522	146.003	0.0219983	0.230211
750	75	8.87021	146.002	0.0213189	0.226223
755	75	8.76489	146.0545	0.0190708	0.20543
760	75	8.657877	146.085	0.0175855	0.192202
765	75	8.55944	146.059	0.0200021	0.221892
770	75	8.47653	146.086	0.0186999	0.209738
775	75	8.38003	146.042	0.0204783	0.232506
780	75	8.288619	146.053	0.0170308	0.195643
785	75	8.20044	146.112	0.0173358	0.20169
790	75	8.11365	146.102	0.0213474	0.238574
795	75	8.03917	146.008	0.0221967	0.25039
800	75	7.95624	146.083	0.022962	0.262294
805	75	7.88107	146.051	0.0217411	0.251084
810	75	7.80416	146.139	0.0201208	0.234896
815	75	7.72871	146.149	0.0185452	0.219078
820	75	7.64378	146.155	0.019188	0.230192
825	75	7.59784	146.139	0.0183772	0.222513
830	75	7.54089	146.123	0.0195451	0.238716
835	75	7.46382	146.236	0.0165101	0.203932
840	75	7.39946	146.191	0.0183487	0.228594
845	75	7.347	146.299	0.0148094	0.185943
850	75	7.278964	146.293	0.0145781	0.183975
855	75	7.215292	146.229	0.0216302	0.261568
860	75	7.15705	146.232	0.0213419	0.260482
865	75	7.09978	146.327	0.0200418	0.247438
870	75	7.04839	146.344	0.01773	0.221193
875	75	6.99773	146.273	0.022184	0.279478
880	75	6.9354	146.455	0.0167836	0.21414
885	75	6.90812	146.324	0.0197711	0.253627
890	75	6.85167	146.398	0.0184493	0.238688
895	75	6.79599	146.398	0.0196271	0.256308
900	75	6.75753	146.4807	0.0180555	0.237401
905	75	6.70295	146.481	0.0187863	0.249276
910	75	6.66582	146.461	0.0189301	0.252575
915	75	6.60885	146.621	0.0167119	0.225398
920	75	6.58078	146.471	0.0230648	0.297722
925	75	6.53275	146.593	0.0217806	0.283061
930	75	6.48966	146.553	0.020454	0.267003
935	75	6.44804	146.612	0.0217067	0.285358
940	75	6.40696	146.662	0.0215313	0.285285
945	75	6.36926	146.7003	0.0225389	0.300449
950	75	6.33152	146.8027	0.0200491	0.269636
955	75	6.29862	146.764	0.0199072	0.26957
960	75	6.25787	146.793	0.0195629	0.266068
965	75	6.22034	146.872	0.0200051	0.273537
970	75	6.18533	146.955	0.0185526	0.256151
975	75	6.14933	146.987	0.0208512	0.290362
980	75	6.11364	147.067	0.0203605	0.285955
985	75	6.08811	147.122	0.0180641	0.254944
990	75	6.04344	147.115	0.0216151	0.293207
995	75	6.02428	147.16	0.0224561	0.306232
1000	75	5.99042	147.224	0.0211531	0.289358
1005	75	5.962	147.194	0.0253908	0.348343
1010	75	5.93256	147.326	0.0235107	0.324603
1015	75	5.8953	147.407	0.0251073	0.349366
1020	75	5.8669	147.4521	0.0233837	0.326427
1025	75	5.83816	147.536	0.0191669	0.269102
1030	75	5.80743	147.592	0.0244483	0.344933
1035	75	5.78626	147.714	0.0191012	0.270761
1040	75	5.76365	147.651	0.0227356	0.323911
1045	75	5.71743	148.026	0.0243774	0.351108
1050	75	5.704	147.899	0.0258463	0.37269
1055	75	5.66682	147.9388	0.0170186	0.249048
1060	75	5.64742	148.016	0.0173471	0.255203
1065	75	5.61704	148.084	0.0162814	0.240932
1070	75	5.58898	148.157	0.018746	0.266191
1075	75	5.56105	148.265	0.0196098	0.280212
1080	75	5.53535	148.43	0.0187475	0.269677
1085	75	5.51442	148.444	0.0201108	0.290626
1090	75	5.49628	148.479	0.0204763	0.297428
1095	75	5.47205	148.583	0.0195338	0.285185
1100	75	5.44417	148.717	0.0191817	0.281613
1105	75	5.41298	148.919	0.0183482	0.271314
1110	75	5.387414	149.057	0.0178138	0.26511
1115	75	5.3708	149.064	0.0179779	0.268684
1120	75	5.351717	149.105	0.0184114	0.276556
1125	75	5.32792	149.22	0.0181278	0.273795
1130	75	5.30164	149.315	0.0184831	0.280308
1135	75	5.27808	149.448	0.017443	0.266075
1140	75	5.2563	149.487	0.0217617	0.31842
1145	75	5.23112	149.63	0.0202637	0.29807
1150	75	5.20798	149.78	0.019129	0.283042
1155	75	5.1838	149.862	0.019817	0.294551
1160	75	5.163269	149.9192	0.0209644	0.313177
1165	75	5.13821	150.0498	0.0195156	0.293237
1170	75	5.10895	150.24	0.0193047	0.292139
1175	75	5.08898	150.29	0.0196048	0.298335
1180	75	5.0732	150.302	0.019549	0.298813
1185	75	5.05593	150.321	0.0204742	0.314324
1190	75	5.03388	150.421	0.0204704	0.315829
1195	75	5.00895	150.4928	0.0203282	0.314857
1200	75	4.98722	150.579	0.0197151	0.306672
1205	75	4.96558	150.687	0.0172258	0.269092
1210	75	4.94478	150.717	0.0202775	0.318186
1215	75	4.92539	150.829	0.0195386	0.308175
1220	75	4.90476	150.912	0.0183812	0.278017
1225	75	4.88582	150.893	0.0207413	0.314766
1230	75	4.87115	150.949	0.019979	0.304414
1235	75	4.85635	150.964	0.0241987	0.368943
1240	75	4.830512	151.144	0.0270529	0.412444
1245	75	4.81156	151.039	0.0205476	0.314723
1250	75	4.78833	151.363	0.0114832	0.176739
1255	75	4.776876	151.492	0.0200455	0.310822
1260	75	4.75513	151.443	0.0199082	0.31147
1265	75	4.74102	151.489	0.0207687	0.327057
1270	75	4.73122	151.468	0.0208375	0.329446
1275	75	4.71625	151.522	0.0200159	0.31739
1280	75	4.69869	151.649	0.0198598	0.316306
1285	75	4.684854	151.794	0.0164611	0.263218
1290	75	4.67251	151.852	0.0175103	0.281253
1295	75	4.65184	151.848	0.0188282	0.290008
1300	75	4.63519	151.948	0.0205285	0.317337
1305	75	4.62206	152.017	0.020108	0.312052
1310	75	4.6131	152.132	0.0220961	0.344737
1315	75	4.59252	152.144	0.0227241	0.354932
1320	75	4.58862	152.281	0.0199343	0.312739
1325	75	4.5712	152.389	0.0244816	0.385353
1330	75	4.55565	152.347	0.0240827	0.379907
1335	75	4.53334	152.443	0.0314678	0.497443
1340	75	4.52934	152.321	0.0252307	0.398989
1345	75	4.52104	152.723	0.0464823	0.741109
1350	75	4.48038	152.506	0.0357029	0.570478
1355	75	4.48691	152.346	0.036595	0.583193
1430	75	4.34078	154.473	0.0553186	0.904859
1435	75	4.33507	154.764	0.039491	0.64947
1440	75	4.31445	154.924	0.0260044	0.425099
1445	75	4.32347	154.9581	0.0183868	0.30422
1450	75	4.31491	155.084	0.0173794	0.287795
1455	75	4.30448	155.45	0.0239595	0.397864
1460	75	4.29603	155.586	0.0142391	0.238027
1465	75	4.27873	155.813	0.0211221	0.35514
1470	75	4.2625	156.038	0.0217158	0.351449
1475	75	4.25365	156.138	0.0211156	0.344363
1480	75	4.24751	156.243	0.0216524	0.354672
1485	75	4.23354	156.324	0.0228326	0.37502
1490	75	4.22138	156.586	0.0223435	0.368292
1495	75	4.20131	156.717	0.0226634	0.374855
1500	75	4.18452	156.989	0.0244866	0.406348
1505	75	4.1698	157.029	0.0224097	0.373066
1510	75	4.15713	157.136	0.0235536	0.39406
1515	75	4.14005	157.336	0.0229721	0.386143
1520	75	4.12453	157.37	0.0220218	0.370698
1525	75	4.112761	157.379	0.0216313	0.365517
1530	75	4.102427	157.524	0.0214107	0.363175
1535	75	4.091	157.758	0.0209734	0.356784
1540	75	4.09277	157.884	0.0208246	0.356569
1545	75	4.08951	158.108	0.0197951	0.340446
1550	75	4.081614	158.327	0.0202072	0.348667
1555	75	4.07535	158.459	0.0219653	0.363819
1560	75	4.06042	158.785	0.0236055	0.39209
1565	75	4.04445	159.177	0.0211268	0.352919
1570	75	4.02181	159.466	0.0229079	0.384339
1575	75	4.00249	159.794	0.0234019	0.394717
1580	75	3.98145	160.036	0.0236778	0.40129
1585	75	3.973134	160.161	0.0203882	0.348207
1590	75	3.97495	160.3555	0.0207386	0.357292
1595	75	3.99488	160.568	0.0199971	0.349442
1600	75	4.04193	160.908	0.0206178	0.367744
1605	75	4.11036	161.361	0.019452	0.356111
1610	75	4.17638	161.546	0.0215282	0.402131
1615	75	4.24887	161.8277	0.0167836	0.32084
1620	75	4.33362	162.167	0.0200023	0.391482
1625	75	4.42032	162.49	0.019552	0.39205
1630	75	4.50807	162.89	0.0196709	0.404069
1635	75	4.59057	163.229	0.0196712	0.413943
1640	75	4.67643	163.4803	0.0222004	0.456482
1645	75	4.76497	163.873	0.0215139	0.451999
1650	75	4.84515	164.238	0.0182941	0.39228
1655	75	4.93947	164.675	0.0205243	0.449404
1660	75	5.02066	164.936	0.0152596	0.340642
1665	75	5.12131	165.565	0.0182297	0.416294
1670	75	5.20711	165.821	0.013919	0.32436
1675	75	5.29558	166.322	0.0188381	0.447238
1680	75	5.36076	166.456	0.0195527	0.472575
1685	75	5.43038	166.933	0.0168755	0.414948
1690	75	5.51213	167.403	0.0234649	0.589591
1695	75	5.602952	168.631	0.0172553	0.438371
1700	75	5.66262	168.106	0.0161067	0.516116
300	77	27.4525	91.2797	0.0426836	0.124623
305	77	26.4723	90.6415	0.0400038	0.118792
310	77	25.683	90.1475	0.0489414	0.148092
315	77	25.0365	89.6508	0.0405117	0.123905
320	77	24.524	89.3182	0.0448383	0.14535
325	77	24.0546	89.0771	0.0446461	0.145646
330	77	23.63401	88.9485	0.0438681	0.143928
335	77	23.2494	88.8837	0.0436778	0.144527
340	77	22.8646	88.8813	0.0423534	0.141067
345	77	22.5249	88.9417	0.0421807	0.141182
350	77	22.1981	89.0576	0.0437431	0.147699
355	77	21.8763	89.2348	0.0395595	0.134427
360	77	21.5347	89.475	0.0447258	0.160267
365	77	21.1848	89.68502	0.0445495	0.160543
370	77	20.84762	90.0346	0.0440888	0.160722
375	77	20.4863	90.1716	0.0424087	0.155588
380	77	20.1153	90.2505	0.0443207	0.164061
385	77	19.7522	90.22052	0.0450577	0.168605
390	77	19.4012	90.0701	0.0432884	0.163555
395	77	19.0813	89.8781	0.0404319	0.154581
400	77	18.8167	89.4418	0.0452615	0.174184
405	77	18.6176	88.9508	0.0446411	0.179991
410	77	18.4821	88.5712	0.0449731	0.181905
415	77	18.4082	88.1554	0.0439434	0.177185
420	77	18.3724	87.9566	0.045661	0.183998
425	77	18.3689	87.7427	0.0454284	0.18174
430	77	18.3899	87.758	0.0452038	0.179903
435	77	18.4177	87.9196	0.0453508	0.17957
440	77	18.4482	88.2164	0.0440657	0.173598
445	77	18.4787	88.6056	0.0430305	0.168736
450	77	18.50474	89.014	0.0435805	0.176773
455	77	18.5186	89.508	0.0436316	0.175974
460	77	18.5299	90.1733	0.0426927	0.1718
465	77	18.5386	90.8702	0.0393149	0.15739
470	77	18.5415	91.5468	0.0413744	0.164914
475	77	18.5401	92.25885	0.0404129	0.160344
480	77	18.535	93.205	0.0393474	0.155948
485	77	18.5221	94.0554	0.0401385	0.158659
490	77	18.5094	94.9959	0.0414025	0.163426
495	77	18.4866	95.9883	0.0396209	0.156426
500	77	18.4624	96.9881	0.0383285	0.156742
505	77	18.4281	98.0395	0.0387234	0.158079
510	77	18.3947	99.3758	0.0347349	0.142319
515	77	18.3464	100.701	0.0342562	0.140637
520	77	18.2646	102.257	0.0359347	0.148478
525	77	18.1141	104.054	0.0316832	0.132657
530	77	17.8777	105.86	0.0304529	0.129992
535	77	17.5473	107.4706	0.0284901	0.124806
540	77	17.179	108.814	0.0273117	0.122699
545	77	16.8043	109.963	0.0280907	0.129542
550	77	16.4776	110.905	0.0284582	0.134826
555	77	16.2359	111.533	0.030855	0.149049
560	77	16.056	112.494	0.0264969	0.129981
565	77	15.9392	113.563	0.0244608	0.121461
570	77	15.8356	115.031	0.022608	0.113917
575	77	15.6848	116.965	0.0224931	0.115831
580	77	15.4423	119.157	0.0218518	0.116347
585	77	15.0411	121.4867	0.0189003	0.104961
590	77	14.5459	123.4423	0.0204913	0.118977
595	77	13.9467	125.3554	0.0173185	0.106721
600	77	13.3359	126.61	0.0233079	0.151012
605	77	12.7577	127.568	0.0189613	0.12591
610	77	12.21442	128.23	0.0177336	0.123081
615	77	11.6828	128.652	0.0172808	0.12613
620	77	11.2212	128.823	0.0167905	0.127387
625	77	10.7945	128.9823	0.0137667	0.108363
630	77	10.3922	128.9017	0.0145123	0.119498
635	77	10.0393	128.749	0.0175147	0.14889
640	77	9.68716	128.666	0.0159079	0.139785
645	77	9.3859	128.457	0.0136368	0.1232
650	77	9.09957	128.213	0.0120657	0.111971
655	77	8.840764	127.887	0.0128985	0.122379
660	77	8.59329	127.485	0.0163555	0.158317
665	77	8.358592	127.127	0.0169465	0.162556
670	77	8.14026	126.826	0.0121908	0.11915
675	77	7.93276	126.471	0.0128317	0.127645
680	77	7.73654	126.087	0.0119782	0.120998
685	77	7.5565	125.625	0.0132654	0.135869
690	77	7.3808	125.157	0.0164805	0.170871
695	77	7.22087	124.857	0.0123477	0.129734
700	77	7.058589	124.476	0.0101092	0.107466
705	77	6.9099	124.019	0.0116729	0.125263
710	77	6.7553	123.588	0.0101112	0.109711
715	77	6.62321	123.138	0.0135674	0.148493
720	77	6.49932	122.701	0.0114554	0.126262
725	77	6.371	122.324	0.0109589	0.121727
730	77	6.24495	121.733	0.0135854	0.149236
735	77	6.13332	121.297	0.0144059	0.159126
740	77	6.01348	120.897	0.010727	0.119527
745	77	5.91249	120.5126	0.00831732	0.0932968
750	77	5.80777	120.002	0.012742	0.143576
755	77	5.71065	119.634	0.0111199	0.131349
760	77	5.61293	119.058	0.0143115	0.169736
765	77	5.52016	118.627	0.0147872	0.176573
770	77	5.44221	118.314	0.0120358	0.144376
775	77	5.35008	117.808	0.0113651	0.136895
780	77	5.265132	117.302	0.0130339	0.156982
785	77	5.18851	116.857	0.0116883	0.141305
790	77	5.11214	116.33	0.0153928	0.185636
795	77	5.03643	115.938	0.0141111	0.170693
800	77	4.96923	115.4753	0.0149657	0.181552
805	77	4.89784	115.1168	0.0105641	0.128607
810	77	4.82932	114.575	0.0131164	0.160094
815	77	4.76261	114.237	0.00837978	0.102438
820	77	4.69189	113.66	0.0117336	0.144137
825	77	4.64958	113.374	0.00953044	0.117247
830	77	4.59677	112.99	0.0098433	0.121105
835	77	4.53049	112.445	0.0115517	0.142225
840	77	4.47446	112.039	0.00997185	0.122843
845	77	4.42668	111.7	0.0128767	0.158507
850	77	4.36654	111.2111	0.0118353	0.145516
855	77	4.3117	110.6581	0.0137326	0.169313
860	77	4.26235	110.271	0.0129166	0.159659
865	77	4.21465	109.93	0.0115167	0.142594
870	77	4.17018	109.4702	0.0127646	0.15833
875	77	4.1256	109.087	0.01155	0.143312
880	77	4.07287	108.631	0.0112214	0.139501
885	77	4.04925	108.361	0.0118476	0.14692
890	77	4.00426	107.937	0.00963771	0.119495
895	77	3.95552	107.5406	0.0100806	0.125188
900	77	3.92362	107.186	0.0116051	0.143786
905	77	3.87566	106.682	0.0125904	0.155816
910	77	3.8466	106.343	0.0112963	0.139615
915	77	3.7958	105.905	0.0114431	0.141581
920	77	3.77517	105.568	0.0135221	0.169067
925	77	3.73481	105.162	0.0110454	0.138185
930	77	3.70291	104.841	0.0116353	0.145584
935	77	3.66571	104.3839	0.0151601	0.189143
940	77	3.6315	103.987	0.0112919	0.140978
945	77	3.60317	103.742	0.0110104	0.137339
950	77	3.565022	103.342	0.0105204	0.131081
955	77	3.53717	102.934	0.0126478	0.157152
960	77	3.50905	102.633	0.00965004	0.119748
965	77	3.47736	102.21	0.0126942	0.157449
970	77	3.44501	101.81	0.0114605	0.142101
975	77	3.41933	101.539	0.00895228	0.110924
980	77	3.38672	101.134	0.0124832	0.154407
985	77	3.36831	100.899	0.0121288	0.149861
990	77	3.3309	100.365	0.0122782	0.154892
995	77	3.31514	100.197	0.0111352	0.140252
1000	77	3.29109	99.8149	0.0117526	0.147794
1005	77	3.26252	99.4527	0.012699	0.159144
1010	77	3.242157	99.2047	0.0146934	0.184233
1015	77	3.20471	98.8039	0.0140992	0.176857
1020	77	3.181951	98.5248	0.0149461	0.187147
1025	77	3.155818	98.0627	0.0151003	0.188534
1030	77	3.13878	97.8046	0.00923269	0.115329
1035	77	3.10672	97.441	0.00962444	0.119912
1040	77	3.09703	97.1274	0.0233849	0.290886
1045	77	3.06523	96.9582	0.0119335	0.148905
1050	77	3.04076	96.7685	0.0225332	0.278788
1055	77	3.01777	96.2054	0.00859455	0.106622
1060	77	3.00089	95.9232	0.0102961	0.127536
1065	77	2.97666	95.666	0.00936627	0.11589
1070	77	2.94776	95.2515	0.0110974	0.140382
1075	77	2.92564	94.9794	0.0107637	0.13623
1080	77	2.90395	94.62149	0.00997188	0.126257
1085	77	2.88823	94.3713	0.00943528	0.119289
1090	77	2.86752	94.1423	0.0101391	0.127654
1095	77	2.84261	93.8552	0.0104154	0.13094
1100	77	2.815403	93.59	0.00923856	0.116004
1105	77	2.789423	93.17572	0.010192	0.1283
1110	77	2.76999	92.8762	0.0107604	0.135277
1115	77	2.75439	92.634	0.0102441	0.12858
1120	77	2.73685	92.39299	0.010476	0.131178
1125	77	2.71379	92.0838	0.0100882	0.126167
1130	77	2.68972	91.7473	0.00848643	0.105974
1135	77	2.668499	91.4584	0.0100071	0.124904
1140	77	2.64926	91.1026	0.010252	0.13126
1145	77	2.62419	90.7928	0.00926578	0.118516
1150	77	2.60482	90.4702	0.0117896	0.150479
1155	77	2.58515	90.1956	0.00794504	0.101277
1160	77	2.56757	89.8046	0.0100708	0.128485
1165	77	2.54868	89.3944	0.00955156	0.121998
1170	77	2.530072	88.9344	0.0092865	0.118748
1175	77	2.5122	88.5744	0.00886236	0.113149
1180	77	2.50045	88.3555	0.00830325	0.105899
1185	77	2.48713	88.0448	0.00908416	0.115537
1190	77	2.47322	87.6881	0.00919534	0.116913
1195	77	2.45029	87.2841	0.00886534	0.112429
1200	77	2.43498	86.9032	0.0095557	0.121106
1205	77	2.41866	86.4445	0.00892502	0.113162
1210	77	2.39916	86.0777	0.00898085	0.113506
1215	77	2.38885	85.7406	0.00889111	0.112526
1220	77	2.37338	85.4015	0.00829711	0.107432
1225	77	2.35846	85.0685	0.012672	0.163859
1230	77	2.34839	84.7627	0.0107036	0.138283
1235	77	2.3387	84.4502	0.0151459	0.19516
1240	77	2.32605	83.9905	0.0187227	0.242297
1245	77	2.31759	83.6511	0.018189	0.235489
1250	77	2.29881	83.1014	0.0236426	0.305148
1255	77	2.28645	82.7167	0.00779295	0.107471
1260	77	2.26618	82.4962	0.00933434	0.120774
1265	77	2.26502	82.07972	0.00898857	0.116527
1270	77	2.25746	82.0098	0.00827338	0.106903
1275	77	2.24367	81.6682	0.00640506	0.0826608
1280	77	2.23484	81.337	0.0125256	0.161702
1285	77	2.21895	80.9976	0.0109679	0.141474
1290	77	2.21087	80.704	0.0130256	0.168178
1295	77	2.19984	80.4661	0.00884617	0.116619
1300	77	2.18502	80.14	0.0104283	0.137351
1305	77	2.17561	79.8573	0.00611544	0.0804724
1310	77	2.15815	79.5273	0.00456009	0.0811765
1315	77	2.1617	79.1895	0.0137761	0.181633
1320	77	2.14129	78.9798	0.0179795	0.235934
1325	77	2.13077	78.6682	0.0184618	0.243569
1330	77	2.138175	78.4151	0.019401	0.256295
1335	77	2.09715	78.1719	0.017551	0.229639
1340	77	2.0878	77.9798	0.0171787	0.238794
1345	77	2.14822	77.7813	0.0415555	0.548651
1350	77	2.04702	76.777	0.0797066	1.01705
1355	77	2.0755	76.8919	0.0797	1.0465
1430	77	1.95365	73.3656	0.0856457	1.17558
1435	77	1.92274	73.6219	0.0799606	1.08493
1440	77	1.89559	73.7228	0.0593317	0.806476
1445	77	1.89909	73.3902	0.0405274	0.55073
1450	77	1.86006	72.4227	0.0304461	0.414623
1455	77	1.85605	72.416	0.019447	0.265286
1460	77	1.8455	72.06385	0.0181895	0.248479
1465	77	1.83493	71.709	0.0122084	0.167684
1470	77	1.81946	71.2739	0.00620664	0.094535
1475	77	1.8086	70.9242	0.00912451	0.127626
1480	77	1.80203	70.6777	0.0107854	0.150984
1485	77	1.78518	70.4273	0.00822325	0.114928
1490	77	1.77995	69.9105	0.00987827	0.138968
1495	77	1.76008	69.5055	0.0110231	0.15462
1500	77	1.74442	68.9084	0.0071353	0.100506
1505	77	1.74156	68.40741	0.0113393	0.160943
1510	77	1.71972	67.8281	0.00896065	0.12682
1515	77	1.7122	67.5018	0.0156949	0.223053
1520	77	1.71071	66.9579	0.0133139	0.190057
1525	77	1.69897	66.4425	0.0114035	0.162966
1530	77	1.69737	66.0933	0.0121924	0.174935
1535	77	1.690412	65.8797	0.0138525	0.199004
1540	77	1.67614	65.5888	0.00861406	0.124312
1545	77	1.66966	65.5505	0.0119793	0.173597
1550	77	1.65715	65.3229	0.00844589	0.12274
1555	77	1.636102	65.0014	0.0104665	0.152167
1560	77	1.6215	64.4541	0.0119784	0.175931
1565	77	1.59181	63.8101	0.0102192	0.149357
1570	77	1.56126	63.13448	0.00872494	0.12782
1575	77	1.56525	61.9297	0.0124435	0.185436
1580	77	1.5455	61.1192	0.0148442	0.221114
1585	77	1.58759	60.276	0.0120487	0.186762
1590	77	1.68028	59.1283	0.0173805	0.289827
1595	77	1.814	58.1999	0.0139069	0.252356
1600	77	2.02643	56.7481	0.0114751	0.23345
1605	77	2.27887	55.2939	0.0101578	0.235563
1610	77	2.50366	53.8335	0.0058947	0.15129
1615	77	2.712647	52.7147	0.00802131	0.224356
1620	77	2.93828	51.2982	0.00575901	0.175546
1625	77	3.15813	49.8413	0.00787244	0.258063
1630	77	3.37501	48.3445	0.00937933	0.330195
1635	77	3.5705	46.9652	0.00631018	0.235702
1640	77	3.75981	45.3326	0.00814777	0.313279
1645	77	3.93852	44.0966	0.0113002	0.454726
1650	77	4.11852	42.4732	0.00656498	0.277172
1655	77	4.29402	41.112	0.00838722	0.370785
1660	77	4.4604	40.07774	0.0127508	0.586759
1665	77	4.6284	38.5059	0.0082592	0.396135
1670	77	4.80004	36.6161	0.0112082	0.554549
1675	77	4.96309	35.423	0.00874412	0.448494
1680	77	5.06972	34.461	0.0103386	0.540183
1685	77	5.198853	33.176	0.0147206	0.781096
1690	77	5.34868	31.671	0.0138935	0.757463
1695	77	5.47709	30.13665	0.017281	0.993361
1700	77	5.631897	28.99288	0.0332782	1.87566
300	79	27.7014	78.8379	0.0484603	0.144126
305	79	26.793	77.9513	0.0433589	0.131686
310	79	26.0486	77.1148	0.0432039	0.133682
315	79	25.4543	76.45372	0.0397354	0.125455
320	79	24.95879	75.9727	0.0480761	0.158009
325	79	24.5274	75.6013	0.0431473	0.143307
330	79	24.1293	75.3272	0.0459519	0.1542
335	79	23.7277	75.0345	0.0462545	0.156677
340	79	23.4049	74.9094	0.0452758	0.154766
345	79	23.0654	74.7968	0.042219	0.145552
350	79	22.7398	74.7494	0.0429029	0.149063
355	79	22.39959	74.7062	0.0448705	0.157516
360	79	22.05163	74.7704	0.0499493	0.181283
365	79	21.71	74.8681	0.0437437	0.160243
370	79	21.3716	74.9096	0.0438558	0.161912
375	79	20.9943	74.8622	0.0487163	0.18208
380	79	20.6471	74.7346	0.0444589	0.167966
385	79	20.3044	74.4708	0.044801	0.171366
390	79	19.9695	74.1562	0.0431371	0.167683
395	79	19.6693	73.7107	0.0392162	0.154309
400	79	19.454	73.1422	0.0459069	0.182547
405	79	19.2899	72.6149	0.0465544	0.189837
410	79	19.2102	72.1076	0.0470676	0.193271
415	79	19.1562	71.7049	0.0448551	0.184335
420	79	19.1394	71.4321	0.0488258	0.200613
425	79	19.1422	71.358	0.0372589	0.153029
430	79	19.16572	71.312	0.048952	0.200291
435	79	19.1867	71.4527	0.0515269	0.2103
440	79	19.1975	71.7279	0.0478985	0.194861
445	79	19.2052	72.1079	0.0449829	0.182239
450	79	19.1894	72.5863	0.0473567	0.194611
455	79	19.1695	73.0872	0.0435907	0.17825
460	79	19.14345	73.6493	0.0425929	0.173706
465	79	19.1012	74.2959	0.0416432	0.169244
470	79	19.0585	74.9204	0.0447588	0.181175
475	79	19.0075	75.6028	0.0437945	0.176301
480	79	18.9358	76.4554	0.0421005	0.169223
485	79	18.8657	77.2847	0.0428973	0.171816
490	79	18.7841	78.1899	0.0424948	0.169645
495	79	18.6928	79.0835	0.0427974	0.170208
500	79	18.6011	80.0608	0.0385758	0.157744
505	79	18.4881	81.1408	0.0393253	0.16033
510	79	18.3586	82.3936	0.0403766	0.164697
515	79	18.2153	83.6454	0.0385423	0.156876
520	79	18.0101	85.1943	0.0392342	0.16083
525	79	17.7255	86.8539	0.038041	0.15707
530	79	17.3674	88.3042	0.0354692	0.148019
535	79	16.9279	89.6625	0.0352053	0.149468
540	79	16.4761	90.6527	0.0370972	0.160912
545	79	16.0263	91.49054	0.0352431	0.156504
550	79	15.6483	92.0697	0.0329434	0.148756
555	79	15.3344	92.6049	0.0340114	0.162088
560	79	15.0867	93.2336	0.0340791	0.164129
565	79	14.8892	94.20134	0.0301835	0.146713
570	79	14.6742	95.6854	0.0287476	0.141597
575	79	14.3729	97.4722	0.0299027	0.149771
580	79	13.9512	99.5132	0.0312172	0.161922
585	79	13.381	101.47	0.026675	0.144271
590	79	12.7204	103.096	0.023944	0.135885
595	79	12.0123	104.0729	0.0253678	0.153218
600	79	11.30195	104.558	0.0255131	0.162485
605	79	10.6349	104.476	0.0259469	0.179291
610	79	10.06121	104.086	0.0236943	0.171183
615	79	9.54916	103.318	0.0231675	0.176151
620	79	9.08982	102.317	0.0220776	0.174294
625	79	8.69092	101.116	0.0213451	0.173533
630	79	8.336132	99.8751	0.0212867	0.177675
635	79	8.0302	98.5079	0.0224558	0.191208
640	79	7.733376	97.04554	0.0233028	0.20265
645	79	7.48829	95.601	0.022779	0.201483
650	79	7.26497	94.128	0.0216933	0.194582
655	79	7.07018	92.62603	0.0212631	0.193107
660	79	6.89032	91.1333	0.0223555	0.205628
665	79	6.72521	89.6486	0.0221881	0.21351
670	79	6.5799	88.11631	0.0214761	0.208495
675	79	6.44772	86.648	0.0224939	0.220681
680	79	6.32901	85.1334	0.0214439	0.212467
685	79	6.21979	83.6356	0.0221691	0.221649
690	79	6.12339	82.2152	0.0208552	0.210526
695	79	6.03749	80.8483	0.0224753	0.228925
700	79	5.954762	79.3871	0.021952	0.225657
705	79	5.88688	78.0497	0.0225074	0.233671
710	79	5.81858	76.577	0.0225916	0.237083
715	79	5.7615	75.2805	0.0224237	0.237787
720	79	5.71152	74.064	0.0211114	0.225935
725	79	5.66683	72.7095	0.022873	0.247562
730	79	5.62159	71.4409	0.0229986	0.254156
735	79	5.58504	70.2583	0.0220833	0.246151
740	79	5.54952	68.92173	0.0250887	0.282468
745	79	5.5198	67.8084	0.0229906	0.261014
750	79	5.49537	66.6766	0.0229498	0.262923
755	79	5.47117	65.57077	0.0247449	0.286025
760	79	5.45299	64.4702	0.0236317	0.275722
765	79	5.43461	63.4075	0.0250083	0.295059
770	79	5.4184	62.5458	0.0231494	0.274753
775	79	5.40814	61.4109	0.0239591	0.287393
780	79	5.39547	60.45657	0.0237495	0.286926
785	79	5.39075	59.5237	0.0234238	0.285651
790	79	5.37859	58.597	0.0248805	0.302181
795	79	5.37262	57.6891	0.0246295	0.301257
800	79	5.36772	56.86557	0.0260594	0.321027
805	79	5.365169	56.07074	0.0265093	0.328514
810	79	5.36452	55.1651	0.0238292	0.297725
815	79	5.36557	54.372	0.0211241	0.266122
820	79	5.36364	53.3968	0.0236395	0.302278
825	79	5.363668	52.9973	0.0224721	0.288565
830	79	5.36392	52.3986	0.0249747	0.322572
835	79	5.36615	51.5125	0.0258342	0.336611
840	79	5.37028	50.8286	0.0253541	0.332467
845	79	5.37174	50.243	0.0245794	0.323372
850	79	5.37862	49.5054	0.0256938	0.338915
855	79	5.3869	48.8039	0.0275578	0.354991
860	79	5.38183	48.2421	0.0236105	0.305876
865	79	5.39061	47.5833	0.0262102	0.342533
870	79	5.39459	47.01598	0.0263019	0.346705
875	79	5.40035	46.4747	0.024347	0.323184
880	79	5.40892	45.7276	0.0237635	0.319013
885	79	5.41059	45.5276	0.0243633	0.328117
890	79	5.41928	44.8882	0.0242924	0.329139
895	79	5.42581	44.2612	0.0238823	0.325874
900	79	5.43179	43.8785	0.0255204	0.349763
905	79	5.43981	43.2729	0.0242371	0.334629
910	79	5.44627	42.8821	0.0241704	0.335046
915	79	5.45268	42.2307	0.0241961	0.338191
920	79	5.45682	42.1073	0.026717	0.36023
925	79	5.46258	41.5919	0.0255638	0.345702
930	79	5.47121	41.0731	0.0255627	0.346782
935	79	5.48176	40.6489	0.0236528	0.321685
940	79	5.48688	40.1915	0.0247247	0.338212
945	79	5.49073	39.8576	0.0244776	0.336434
950	79	5.4986	39.4245	0.025227	0.348954
955	79	5.505517	39.0347	0.0257715	0.358475
960	79	5.5163	38.6995	0.0265003	0.369175
965	79	5.52112	38.2448	0.0238261	0.333268
970	79	5.53059	37.8675	0.0229054	0.323042
975	79	5.535	37.4788	0.0244439	0.347211
980	79	5.53841	37.0845	0.0235919	0.337531
985	79	5.5459	36.8871	0.0238019	0.341331
990	79	5.55171	36.4009	0.0256559	0.354633
995	79	5.55766	36.23428	0.0264476	0.367035
1000	79	5.5625	35.8918	0.0264864	0.367673
1005	79	5.573081	35.6052	0.0227133	0.315461
1010	79	5.57741	35.2451	0.0253541	0.353188
1015	79	5.5838	34.82592	0.0251306	0.353057
1020	79	5.58427	34.56559	0.0229043	0.322209
1025	79	5.59486	34.2057	0.0274291	0.386409
1030	79	5.60003	33.933	0.026463	0.373908
1035	79	5.605361	33.541	0.0246913	0.35097
1040	79	5.61175	33.2907	0.0251268	0.358103
1045	79	5.61075	33.0396	0.0238001	0.340792
1050	79	5.62323	32.699	0.0246457	0.354471
1055	79	5.63291	32.455	0.0183502	0.267913
1060	79	5.636857	32.2355	0.0172836	0.25338
1065	79	5.6397	31.9616	0.0197933	0.291343
1070	79	5.645082	31.6569	0.0213265	0.30113
1075	79	5.65132	31.3271	0.0197568	0.280135
1080	79	5.65542	31.0483	0.0197668	0.281683
1085	79	5.65615	30.8296	0.0210775	0.301638
1090	79	5.66007	30.6792	0.0205768	0.295498
1095	79	5.66353	30.3982	0.0210423	0.303316
1100	79	5.66676	30.08699	0.0199213	0.288185
1105	79	5.6705	29.6616	0.0190273	0.276668
1110	79	5.67659	29.3855	0.0179859	0.262862
1115	79	5.679	29.2346	0.019025	0.279215
1120	79	5.68468	29.0383	0.019495	0.287097
1125	79	5.6861	28.7918	0.0195516	0.288907
1130	79	5.69074	28.4969	0.0186918	0.27732
1135	79	5.69656	28.2218	0.0181274	0.269986
1140	79	5.697649	28.015	0.0220283	0.313991
1145	79	5.70029	27.764	0.0215496	0.308315
1150	79	5.70568	27.498	0.0205905	0.295797
1155	79	5.70868	27.2688	0.0203795	0.293747
1160	79	5.71514	26.9849	0.0202634	0.293221
1165	79	5.72193	26.7142	0.020135	0.292558
1170	79	5.72758	26.4192	0.0205633	0.300109
1175	79	5.73447	26.1929	0.0202662	0.297056
1180	79	5.73857	26.03023	0.0199204	0.293144
1185	79	5.74621	25.8797	0.0197382	0.291254
1190	79	5.75365	25.6646	0.0209886	0.31074
1195	79	5.76289	25.4404	0.0207372	0.307944
1200	79	5.772644	25.2532	0.0202841	0.30179
1205	79	5.77486	24.9592	0.0200195	0.299051
1210	79	5.78715	24.7734	0.0190369	0.285284
1215	79	5.78868	24.5885	0.0207792	0.312262
1220	79	5.7948	24.4497	0.0224579	0.322498
1225	79	5.80179	24.3087	0.0197653	0.284409
1230	79	5.80967	24.1042	0.0214547	0.30935
1235	79	5.81422	23.9973	0.0217832	0.314268
1240	79	5.818665	23.8276	0.0240825	0.346936
1245	79	5.821	23.5249	0.0226597	0.326973
1250	79	5.831811	23.3815	0.026027	0.376825
1255	79	5.8319	23.1483	0.0192613	0.280133
1260	79	5.85089	22.8834	0.0186314	0.273707
1265	79	5.85741	22.7694	0.0193128	0.285302
1270	79	5.85677	22.7457	0.0186412	0.276473
1275	79	5.862442	22.57823	0.0195573	0.290914
1280	79	5.86762	22.4806	0.0212259	0.316035
1285	79	5.87269	22.2691	0.0170131	0.253866
1290	79	5.88063	22.1177	0.0192413	0.287921
1295	79	5.88175	22.00485	0.0209789	0.300357
1300	79	5.88578	21.80827	0.0201189	0.288882
1305	79	5.890976	21.6937	0.0220165	0.3168
1310	79	5.89609	21.5246	0.0214888	0.310183
1315	79	5.8973	21.3619	0.0219722	0.318027
1320	79	5.90349	21.2596	0.0220666	0.320071
1325	79	5.90948	21.229	0.0178915	0.259578
1330	79	5.90806	21.0264	0.0212011	0.30805
1335	79	5.92438	20.9647	0.0215841	0.314259
1340	79	5.908453	20.78	0.0180836	0.263776
1345	79	5.9178	20.868	0.0294828	0.429681
1350	79	5.91687	20.4877	0.0405259	0.594665
1355	79	5.92539	20.0794	0.0257205	0.399655
1430	79	5.90392	18.8777	0.0277142	0.407576
1435	79	5.9578	18.3857	0.028631	0.423032
1440	79	5.953928	18.0943	0.0269699	0.399056
1445	79	5.932672	17.9055	0.0208419	0.310319
1450	79	5.92559	17.9382	0.0186743	0.279333
1455	79	5.93545	17.7012	0.0227533	0.341708
1460	79	5.93141	17.5137	0.0199518	0.301058
1465	79	5.93748	17.2693	0.0179005	0.271519
1470	79	5.93842	17.0557	0.0209565	0.304977
1475	79	5.94241	16.8264	0.0197943	0.289834
1480	79	5.94463	16.7373	0.0211785	0.311156
1485	79	5.94655	16.6431	0.0216505	0.318956
1490	79	5.948102	16.4304	0.0207204	0.305828
1495	79	5.95263	16.2389	0.0205198	0.303481
1500	79	5.95913	16.1137	0.0189522	0.280832
1505	79	5.96538	15.8742	0.0207213	0.308
1510	79	5.96595	15.7011	0.018854	0.280633
1515	79	5.97672	15.587	0.0197884	0.295322
1520	79	5.98438	15.45292	0.0183579	0.274583
1525	79	5.98446	15.3185	0.0217493	0.326398
1530	79	5.99277	15.1722	0.0205854	0.309563
1535	79	5.98999	15.1225	0.0189405	0.28554
1540	79	5.99044	14.9588	0.0195682	0.296399
1545	79	5.98748	14.8293	0.0185168	0.281681
1550	79	5.98174	14.7249	0.0199453	0.304624
1555	79	5.98128	14.5355	0.02311	0.337671
1560	79	5.97647	14.26057	0.0219315	0.321451
1565	79	5.97744	13.9615	0.0211484	0.310881
1570	79	5.97759	13.7173	0.0217828	0.320814
1575	79	5.988595	13.4163	0.0203852	0.300811
1580	79	6.00537	13.1599	0.0228861	0.338719
1585	79	6.03714	12.9003	0.0205926	0.305905
1590	79	6.095264	12.6641	0.0198639	0.296284
1595	79	6.17645	12.372	0.021721	0.326537
1600	79	6.29355	12.08461	0.0198378	0.300537
1605	79	6.44666	11.7581	0.0213152	0.327399
1610	79	6.594099	11.4219	0.0197965	0.306898
1615	79	6.73663	11.1662	0.0195459	0.305847
1620	79	6.89689	10.8518	0.0216916	0.342672
1625	79	7.07182	10.566	0.0202324	0.322258
1630	79	7.24032	10.2177	0.0183103	0.293776
1635	79	7.40664	9.91978	0.019917	0.322198
1640	79	7.57383	9.60882	0.0205315	0.318924
1645	79	7.72958	9.27466	0.0199653	0.311525
1650	79	7.89085	8.9307	0.0220287	0.34525
1655	79	8.0486	8.743165	0.023501	0.370143
1660	79	8.20463	8.38629	0.0209967	0.332404
1665	79	8.36006	8.06775	0.0201118	0.320621
1670	79	8.54183	7.79057	0.0248066	0.395423
1675	79	8.68224	7.49023	0.0209272	0.3356
1680	79	8.80247	7.12317	0.0217816	0.350171
1685	79	8.92925	6.99911	0.0269599	0.43362
1690	79	9.084054	6.87163	0.0200963	0.323691
1695	79	9.24602	6.34578	0.0386061	0.619619
1700	79	9.36393	6.02898	0.0627814	1.01425